trials.thisRepN,trials.thisTrialN,trials.thisN,trials.thisIndex,num_distr,fixation.started,target.started,mouse.started,mouse.x,mouse.y,mouse.leftButton,mouse.midButton,mouse.rightButton,mouse.time,mouse.clicked_name,participant,session,date,expName,psychopyVersion,frameRate,
0,0,0,0,10,14.254339100036304,14.254339100036304,0.028992499981541187,[-0.11916666666666667],[-0.12666666666666668],[1],[0],[0],[4.532735399960075],['target'],001,001,2023-09-28_11h22.42.251,tutorial3,2023.1.3,60.25453926380832,
1,0,1,0,5,18.78342100000009,18.78342100000009,0.009857400029432029,[-0.35],[0.21],[1],[0],[0],[2.2717116000130773],['target'],001,001,2023-09-28_11h22.42.251,tutorial3,2023.1.3,60.25453926380832,
2,0,2,0,10,21.09271500003524,21.09271500003524,0.02085800003260374,[0.21083333333333334],[0.4216666666666667],[1],[0],[0],[2.3724155999952927],['target'],001,001,2023-09-28_11h22.42.251,tutorial3,2023.1.3,60.25453926380832,
3,0,3,0,5,23.473316700023133,23.473316700023133,0.010588699951767921,[-0.335],[0.23583333333333334],[1],[0],[0],[1.7535046000266448],['target'],001,001,2023-09-28_11h22.42.251,tutorial3,2023.1.3,60.25453926380832,
4,0,4,0,10,25.25483600003645,25.25483600003645,0.02056940004695207,[-0.3375],[-0.145],[1],[0],[0],[1.7573869000189006],['target'],001,001,2023-09-28_11h22.42.251,tutorial3,2023.1.3,60.25453926380832,
5,0,5,0,10,27.036922400002368,27.036922400002368,0.019205700024031103,[-0.14333333333333334],[-0.035833333333333335],[1],[0],[0],[1.744920200027991],['target'],001,001,2023-09-28_11h22.42.251,tutorial3,2023.1.3,60.25453926380832,
6,0,6,0,10,28.795684800017625,28.795684800017625,0.020053999964147806,[0.011666666666666667],[-0.09916666666666667],[1],[0],[0],[1.910017499991227],['target'],001,001,2023-09-28_11h22.42.251,tutorial3,2023.1.3,60.25453926380832,
7,0,7,0,10,30.731468599988148,30.731468599988148,0.019995299982838333,"[0.24083333333333334, 0.19166666666666668, 0.02]","[0.4608333333333333, 0.49083333333333334, -0.01]","[1, 1, 1]","[0, 0, 0]","[0, 0, 0]","[3.193925500032492, 5.877165600017179, 7.67753410001751]",['target'],001,001,2023-09-28_11h22.42.251,tutorial3,2023.1.3,60.25453926380832,
8,0,8,0,5,38.41958530002739,38.41958530002739,0.011244399996940047,[0.0075],[-0.445],[1],[0],[0],[2.2528809999930672],['target'],001,001,2023-09-28_11h22.42.251,tutorial3,2023.1.3,60.25453926380832,
9,0,9,0,10,40.70748670003377,40.70748670003377,0.023469700012356043,[-0.4925],[-0.20083333333333334],[1],[0],[0],[2.2371255999896675],['target'],001,001,2023-09-28_11h22.42.251,tutorial3,2023.1.3,60.25453926380832,
10,0,10,0,5,42.95016940002097,42.95016940002097,0.01061999995727092,[0.2325],[-0.3541666666666667],[1],[0],[0],[2.1206524000153877],['target'],001,001,2023-09-28_11h22.42.251,tutorial3,2023.1.3,60.25453926380832,
11,0,11,0,10,45.11060489999363,45.11060489999363,0.0253738000174053,[0.009166666666666667],[-0.47333333333333333],[1],[0],[0],[2.219084100041073],['target'],001,001,2023-09-28_11h22.42.251,tutorial3,2023.1.3,60.25453926380832,
12,0,12,0,10,47.35009640001226,47.35009640001226,0.021599299972876906,[0.08083333333333333],[0.39416666666666667],[1],[0],[0],[1.8073392000515014],['target'],001,001,2023-09-28_11h22.42.251,tutorial3,2023.1.3,60.25453926380832,
13,0,13,0,10,49.18105800001649,49.18105800001649,0.022214500000700355,[0.48583333333333334],[-0.31333333333333335],[1],[0],[0],[2.5575569000211544],['target'],001,001,2023-09-28_11h22.42.251,tutorial3,2023.1.3,60.25453926380832,
14,0,14,0,5,51.75003400002606,51.75003400002606,0.01124229998094961,[-0.24583333333333332],[-0.42916666666666664],[1],[0],[0],[2.118320500012487],['target'],001,001,2023-09-28_11h22.42.251,tutorial3,2023.1.3,60.25453926380832,
15,0,15,0,10,53.9596343000303,53.9596343000303,0.07757859997218475,[0.43333333333333335],[0.20833333333333334],[1],[0],[0],[3.420110799954273],['target'],001,001,2023-09-28_11h22.42.251,tutorial3,2023.1.3,60.25453926380832,
16,0,16,0,10,57.40120469999965,57.40120469999965,0.02109520003432408,[0.4841666666666667],[0.3775],[1],[0],[0],[2.1418498000130057],['target'],001,001,2023-09-28_11h22.42.251,tutorial3,2023.1.3,60.25453926380832,
17,0,17,0,5,59.552888399979565,59.552888399979565,0.011498300009407103,[0.13],[0.26416666666666666],[1],[0],[0],[1.5182225999888033],['target'],001,001,2023-09-28_11h22.42.251,tutorial3,2023.1.3,60.25453926380832,
18,0,18,0,10,61.10315650003031,61.10315650003031,0.02052010002080351,[-0.3566666666666667],[0.375],[1],[0],[0],[3.9587054000003263],['target'],001,001,2023-09-28_11h22.42.251,tutorial3,2023.1.3,60.25453926380832,
19,0,19,0,10,65.08659560000524,65.08659560000524,0.02031719998922199,[-0.2775],[0.38],[1],[0],[0],[1.5595280000125058],['target'],001,001,2023-09-28_11h22.42.251,tutorial3,2023.1.3,60.25453926380832,
20,0,20,0,10,66.67002479999792,66.67002479999792,0.02182259998517111,[-0.36083333333333334],[-0.405],[1],[0],[0],[2.24110559996916],['target'],001,001,2023-09-28_11h22.42.251,tutorial3,2023.1.3,60.25453926380832,
21,0,21,0,10,68.93642610003008,68.93642610003008,0.02026229997863993,[0.06416666666666666],[-0.15083333333333335],[1],[0],[0],[1.4933533999719657],['target'],001,001,2023-09-28_11h22.42.251,tutorial3,2023.1.3,60.25453926380832,
22,0,22,0,10,70.45387279998977,70.45387279998977,0.02245360001688823,[0.18916666666666668],[0.3825],[1],[0],[0],[1.607538799988106],['target'],001,001,2023-09-28_11h22.42.251,tutorial3,2023.1.3,60.25453926380832,
23,0,23,0,5,72.06677420000779,72.06677420000779,0.013200899993535131,[-0.19583333333333333],[0.48833333333333334],[1],[0],[0],[3.1010296000167727],['target'],001,001,2023-09-28_11h22.42.251,tutorial3,2023.1.3,60.25453926380832,
24,0,24,0,5,75.18347849999554,75.18347849999554,0.012006700038909912,[0.16916666666666666],[-0.09166666666666666],[1],[0],[0],[2.2338617999921553],['target'],001,001,2023-09-28_11h22.42.251,tutorial3,2023.1.3,60.25453926380832,
25,0,25,0,10,77.44686189998174,77.44686189998174,0.02134989999467507,[0.04083333333333333],[-0.485],[1],[0],[0],[3.3235019000130706],['target'],001,001,2023-09-28_11h22.42.251,tutorial3,2023.1.3,60.25453926380832,
26,0,26,0,10,80.79761020001024,80.79761020001024,0.019288199953734875,"[-0.20833333333333334, -0.18416666666666667]","[-0.12833333333333333, -0.14333333333333334]","[1, 1]","[0, 0]","[0, 0]","[3.4615037000039592, 8.328789399995003]",['target'],001,001,2023-09-28_11h22.42.251,tutorial3,2023.1.3,60.25453926380832,
27,0,27,0,5,89.13150160002988,89.13150160002988,0.011189499986357987,[-0.0075],[-0.4191666666666667],[1],[0],[0],[1.8355022000032477],['target'],001,001,2023-09-28_11h22.42.251,tutorial3,2023.1.3,60.25453926380832,
28,0,28,0,5,90.9847705999855,90.9847705999855,0.011321099998895079,[-0.39916666666666667],[-0.4175],[1],[0],[0],[1.9844433999969624],['target'],001,001,2023-09-28_11h22.42.251,tutorial3,2023.1.3,60.25453926380832,
29,0,29,0,5,92.98634459997993,92.98634459997993,0.010819199960678816,[0.42083333333333334],[0.10833333333333334],[1],[0],[0],[2.019674200040754],['target'],001,001,2023-09-28_11h22.42.251,tutorial3,2023.1.3,60.25453926380832,
30,0,30,0,5,95.01689389999956,95.01689389999956,0.011182399990502745,[0.13833333333333334],[-0.0875],[1],[0],[0],[1.5688096000230871],['target'],001,001,2023-09-28_11h22.42.251,tutorial3,2023.1.3,60.25453926380832,
31,0,31,0,5,96.60669029998826,96.60669029998826,0.014702499960549176,[0.24083333333333334],[-0.14166666666666666],[1],[0],[0],[1.6316063999547623],['target'],001,001,2023-09-28_11h22.42.251,tutorial3,2023.1.3,60.25453926380832,
32,0,32,0,10,98.26682960003382,98.26682960003382,0.02042260003509,[0.4483333333333333],[-0.43583333333333335],[1],[0],[0],[1.7737146000145003],['target'],001,001,2023-09-28_11h22.42.251,tutorial3,2023.1.3,60.25453926380832,
33,0,33,0,10,100.06488940003328,100.06488940003328,0.02079119998961687,[0.2941666666666667],[0.16166666666666665],[1],[0],[0],[1.908791099966038],['target'],001,001,2023-09-28_11h22.42.251,tutorial3,2023.1.3,60.25453926380832,
34,0,34,0,10,101.99472110002534,101.99472110002534,0.01990209997165948,[0.43],[0.20166666666666666],[1],[0],[0],[1.4773413000511937],['target'],001,001,2023-09-28_11h22.42.251,tutorial3,2023.1.3,60.25453926380832,
35,0,35,0,5,103.48110530001577,103.48110530001577,0.011136899993289262,[0.37333333333333335],[0.15166666666666667],[1],[0],[0],[1.2698108000331558],['target'],001,001,2023-09-28_11h22.42.251,tutorial3,2023.1.3,60.25453926380832,
36,0,36,0,10,104.77899940003408,104.77899940003408,0.021968599990941584,[-0.43583333333333335],[0.2783333333333333],[1],[0],[0],[2.457858799956739],['target'],001,001,2023-09-28_11h22.42.251,tutorial3,2023.1.3,60.25453926380832,
37,0,37,0,5,107.25609099998837,107.25609099998837,0.014163699990604073,[0.06666666666666667],[0.27666666666666667],[1],[0],[0],[1.5482439000043087],['target'],001,001,2023-09-28_11h22.42.251,tutorial3,2023.1.3,60.25453926380832,
38,0,38,0,10,108.83243260002928,108.83243260002928,0.02167010004632175,[0.004166666666666667],[0.485],[1],[0],[0],[3.1885752999805845],['target'],001,001,2023-09-28_11h22.42.251,tutorial3,2023.1.3,60.25453926380832,
39,0,39,0,5,112.03348290000577,112.03348290000577,0.013910099980421364,[-0.3383333333333333],[0.006666666666666667],[1],[0],[0],[1.74953099997947],['target'],001,001,2023-09-28_11h22.42.251,tutorial3,2023.1.3,60.25453926380832,
40,0,40,0,10,113.81621820002329,113.81621820002329,0.024167499970644712,[-0.38083333333333336],[0.0275],[1],[0],[0],[1.5553699999582022],['target'],001,001,2023-09-28_11h22.42.251,tutorial3,2023.1.3,60.25453926380832,
41,0,41,0,5,115.38854569999967,115.38854569999967,0.014394500001799315,[-0.31333333333333335],[-0.2683333333333333],[1],[0],[0],[2.0824784000287764],['target'],001,001,2023-09-28_11h22.42.251,tutorial3,2023.1.3,60.25453926380832,
42,0,42,0,5,117.48843309999211,117.48843309999211,0.013098599971272051,[-0.28833333333333333],[-0.0775],[1],[0],[0],[1.7318118999828584],['target'],001,001,2023-09-28_11h22.42.251,tutorial3,2023.1.3,60.25453926380832,
43,0,43,0,10,119.24819670000579,119.24819670000579,0.02066069998545572,[-0.25],[0.2675],[1],[0],[0],[1.9911355000222102],['target'],001,001,2023-09-28_11h22.42.251,tutorial3,2023.1.3,60.25453926380832,
44,0,44,0,5,121.24565870000515,121.24565870000515,0.010657500009983778,[0.14833333333333334],[-0.3933333333333333],[1],[0],[0],[1.85272869997425],['target'],001,001,2023-09-28_11h22.42.251,tutorial3,2023.1.3,60.25453926380832,
45,0,45,0,10,123.13281540002208,123.13281540002208,0.02362419996643439,[-0.013333333333333334],[0.24083333333333334],[1],[0],[0],[2.290118300006725],['target'],001,001,2023-09-28_11h22.42.251,tutorial3,2023.1.3,60.25453926380832,
46,0,46,0,5,125.43167750001885,125.43167750001885,0.010471499990671873,[-0.2733333333333333],[-0.07916666666666666],[1],[0],[0],[1.4877903999877162],['target'],001,001,2023-09-28_11h22.42.251,tutorial3,2023.1.3,60.25453926380832,
47,0,47,0,5,126.93123879999621,126.93123879999621,0.01185569999506697,[-0.4325],[0.395],[1],[0],[0],[1.7339613999938592],['target'],001,001,2023-09-28_11h22.42.251,tutorial3,2023.1.3,60.25453926380832,
48,0,48,0,5,128.6817087000236,128.6817087000236,0.010887000011280179,[-0.004166666666666667],[-0.055],[1],[0],[0],[2.0526930000050925],['target'],001,001,2023-09-28_11h22.42.251,tutorial3,2023.1.3,60.25453926380832,
49,0,49,0,10,130.76147440000204,130.76147440000204,0.02290679997531697,[-0.23166666666666666],[-0.014166666666666666],[1],[0],[0],[1.4230056999949738],['target'],001,001,2023-09-28_11h22.42.251,tutorial3,2023.1.3,60.25453926380832,
50,0,50,0,5,132.20349570002872,132.20349570002872,0.014385499991476536,[-0.38],[-0.1425],[1],[0],[0],[2.1007935000234284],['target'],001,001,2023-09-28_11h22.42.251,tutorial3,2023.1.3,60.25453926380832,
51,0,51,0,10,134.33778460003668,134.33778460003668,0.023796599998604506,[-0.4166666666666667],[-0.25583333333333336],[1],[0],[0],[1.4358046000124887],['target'],001,001,2023-09-28_11h22.42.251,tutorial3,2023.1.3,60.25453926380832,
52,0,52,0,10,135.80083680001553,135.80083680001553,0.022301599965430796,[-0.42333333333333334],[-0.09833333333333333],[1],[0],[0],[1.7581614999799058],['target'],001,001,2023-09-28_11h22.42.251,tutorial3,2023.1.3,60.25453926380832,
53,0,53,0,5,137.563576799992,137.563576799992,0.010621699970215559,[-0.1925],[0.1825],[1],[0],[0],[2.020548799948301],['target'],001,001,2023-09-28_11h22.42.251,tutorial3,2023.1.3,60.25453926380832,
54,0,54,0,10,139.6094143000082,139.6094143000082,0.022200699953828007,[-0.49333333333333335],[0.155],[1],[0],[0],[1.8576854999992065],['target'],001,001,2023-09-28_11h22.42.251,tutorial3,2023.1.3,60.25453926380832,
55,0,55,0,10,141.49837119999574,141.49837119999574,0.01997670001583174,[0.38083333333333336],[-0.25833333333333336],[1],[0],[0],[2.3595484999823384],['target'],001,001,2023-09-28_11h22.42.251,tutorial3,2023.1.3,60.25453926380832,
56,0,56,0,5,143.86821769998642,143.86821769998642,0.010921200038865209,[-0.345],[0.4191666666666667],[1],[0],[0],[2.2863217999693006],['target'],001,001,2023-09-28_11h22.42.251,tutorial3,2023.1.3,60.25453926380832,
57,0,57,0,5,146.16356930002803,146.16356930002803,0.01155639998614788,[-0.37416666666666665],[-0.4041666666666667],[1],[0],[0],[2.383293999999296],['target'],001,001,2023-09-28_11h22.42.251,tutorial3,2023.1.3,60.25453926380832,
58,0,58,0,10,148.58268980000867,148.58268980000867,0.02312920003896579,[0.37416666666666665],[0.06583333333333333],[1],[0],[0],[2.0732123000198044],['target'],001,001,2023-09-28_11h22.42.251,tutorial3,2023.1.3,60.25453926380832,
59,0,59,0,5,150.66140580002684,150.66140580002684,0.011158699984662235,[-0.31583333333333335],[0.4658333333333333],[1],[0],[0],[2.1190306000062265],['target'],001,001,2023-09-28_11h22.42.251,tutorial3,2023.1.3,60.25453926380832,
60,0,60,0,5,152.80214069999056,152.80214069999056,0.011836699966806918,[-0.2833333333333333],[0.22833333333333333],[1],[0],[0],[1.6672090000356548],['target'],001,001,2023-09-28_11h22.42.251,tutorial3,2023.1.3,60.25453926380832,
61,0,61,0,5,154.4821478999802,154.4821478999802,0.013451799983158708,[-0.25083333333333335],[-0.37083333333333335],[1],[0],[0],[1.8832256000023335],['target'],001,001,2023-09-28_11h22.42.251,tutorial3,2023.1.3,60.25453926380832,
62,0,62,0,5,156.38626410003053,156.38626410003053,0.011516199971083552,[0.17083333333333334],[0.2375],[1],[0],[0],[1.6832870000507683],['target'],001,001,2023-09-28_11h22.42.251,tutorial3,2023.1.3,60.25453926380832,
63,0,63,0,5,158.08309109997936,158.08309109997936,0.010357399994973093,[0.16583333333333333],[0.13916666666666666],[1],[0],[0],[1.3367579000187106],['target'],001,001,2023-09-28_11h22.42.251,tutorial3,2023.1.3,60.25453926380832,
64,0,64,0,5,159.43836040003225,159.43836040003225,0.011638199968729168,[-0.47833333333333333],[-0.2841666666666667],[1],[0],[0],[2.5507048999425024],['target'],001,001,2023-09-28_11h22.42.251,tutorial3,2023.1.3,60.25453926380832,
65,0,65,0,10,162.0193199000205,162.0193199000205,0.024838700017426163,[-0.4741666666666667],[-0.0725],[1],[0],[0],[1.4188414000091143],['target'],001,001,2023-09-28_11h22.42.251,tutorial3,2023.1.3,60.25453926380832,
66,0,66,0,10,163.46283279999625,163.46283279999625,0.020818900025915354,[-0.21583333333333332],[-0.22916666666666666],[1],[0],[0],[1.7257640999741852],['target'],001,001,2023-09-28_11h22.42.251,tutorial3,2023.1.3,60.25453926380832,
67,0,67,0,5,165.19977770000696,165.19977770000696,0.010992300056386739,[0.43666666666666665],[0.20416666666666666],[1],[0],[0],[2.5188116000499576],['target'],001,001,2023-09-28_11h22.42.251,tutorial3,2023.1.3,60.25453926380832,
68,0,68,0,10,167.74038580001798,167.74038580001798,0.020249399996828288,[0.44666666666666666],[-0.26416666666666666],[1],[0],[0],[1.9922511000186205],['target'],001,001,2023-09-28_11h22.42.251,tutorial3,2023.1.3,60.25453926380832,
69,0,69,0,5,169.75314829999115,169.75314829999115,0.013896600052248687,[0.43666666666666665],[0.16416666666666666],[1],[0],[0],[1.516845199977979],['target'],001,001,2023-09-28_11h22.42.251,tutorial3,2023.1.3,60.25453926380832,
70,0,70,0,5,171.28632509999443,171.28632509999443,0.012649099982809275,[-0.4091666666666667],[-0.3408333333333333],[1],[0],[0],[1.9312197000253946],['target'],001,001,2023-09-28_11h22.42.251,tutorial3,2023.1.3,60.25453926380832,
71,0,71,0,5,173.22823330003303,173.22823330003303,0.011376600014045835,[-0.0475],[0.4716666666666667],[1],[0],[0],[3.6512647999916226],['target'],001,001,2023-09-28_11h22.42.251,tutorial3,2023.1.3,60.25453926380832,
72,0,72,0,10,176.90942159999395,176.90942159999395,0.020325199991930276,[0.050833333333333335],[-0.32666666666666666],[1],[0],[0],[2.0757150999852456],['target'],001,001,2023-09-28_11h22.42.251,tutorial3,2023.1.3,60.25453926380832,
73,0,73,0,5,178.99482540000463,178.99482540000463,0.011017600016202778,[0.275],[0.19583333333333333],[1],[0],[0],[1.6360507999779657],['target'],001,001,2023-09-28_11h22.42.251,tutorial3,2023.1.3,60.25453926380832,
74,0,74,0,5,180.65078299999004,180.65078299999004,0.011276700010057539,[0.42916666666666664],[0.4558333333333333],[1],[0],[0],[2.1851077000028454],['target'],001,001,2023-09-28_11h22.42.251,tutorial3,2023.1.3,60.25453926380832,
75,0,75,0,10,182.86636919999728,182.86636919999728,0.022475399950053543,[-0.31],[0.018333333333333333],[1],[0],[0],[2.2244080000091344],['target'],001,001,2023-09-28_11h22.42.251,tutorial3,2023.1.3,60.25453926380832,
76,0,76,0,5,185.09784160001436,185.09784160001436,0.011452700011432171,[0.31916666666666665],[0.49333333333333335],[1],[0],[0],[2.250942800019402],['target'],001,001,2023-09-28_11h22.42.251,tutorial3,2023.1.3,60.25453926380832,
77,0,77,0,10,187.38644879998174,187.38644879998174,0.02256939996732399,[0.075],[-0.29],[1],[0],[0],[2.5725175000261515],['target'],001,001,2023-09-28_11h22.42.251,tutorial3,2023.1.3,60.25453926380832,
78,0,78,0,5,189.95849370001815,189.95849370001815,0.010536000016145408,[0.2775],[0.3983333333333333],[1],[0],[0],[1.5703065000125207],['target'],001,001,2023-09-28_11h22.42.251,tutorial3,2023.1.3,60.25453926380832,
79,0,79,0,5,191.54747719998704,191.54747719998704,0.012431200011633337,[-0.24416666666666667],[-0.1325],[1],[0],[0],[1.9339076000032946],['target'],001,001,2023-09-28_11h22.42.251,tutorial3,2023.1.3,60.25453926380832,
80,0,80,0,10,193.5133996999939,193.5133996999939,0.020686800009571016,[-0.3433333333333333],[0.195],[1],[0],[0],[1.7089064000174403],['target'],001,001,2023-09-28_11h22.42.251,tutorial3,2023.1.3,60.25453926380832,
81,0,81,0,5,195.23147110000718,195.23147110000718,0.011281499988399446,[0.2633333333333333],[0.39],[1],[0],[0],[2.1520308000035584],['target'],001,001,2023-09-28_11h22.42.251,tutorial3,2023.1.3,60.25453926380832,
82,0,82,0,5,197.39444010000443,197.39444010000443,0.012045199982821941,[-0.32916666666666666],[0.30916666666666665],[1],[0],[0],[1.9014383999747224],['target'],001,001,2023-09-28_11h22.42.251,tutorial3,2023.1.3,60.25453926380832,
83,0,83,0,5,199.31555150001077,199.31555150001077,0.011523699969984591,[0.32916666666666666],[-0.20916666666666667],[1],[0],[0],[1.8344181000138633],['target'],001,001,2023-09-28_11h22.42.251,tutorial3,2023.1.3,60.25453926380832,
84,0,84,0,10,201.17931530001806,201.17931530001806,0.02018390002194792,[0.38],[-0.0225],[1],[0],[0],[1.7411493000108749],['target'],001,001,2023-09-28_11h22.42.251,tutorial3,2023.1.3,60.25453926380832,
85,0,85,0,10,202.94151899998542,202.94151899998542,0.02038529998390004,[-0.06416666666666666],[0.3433333333333333],[1],[0],[0],[2.6269302999717183],['target'],001,001,2023-09-28_11h22.42.251,tutorial3,2023.1.3,60.25453926380832,
86,0,86,0,5,205.5802440000116,205.5802440000116,0.011292100010905415,[0.32166666666666666],[-0.32916666666666666],[1],[0],[0],[1.952706300013233],['target'],001,001,2023-09-28_11h22.42.251,tutorial3,2023.1.3,60.25453926380832,
87,0,87,0,10,207.55873440002324,207.55873440002324,0.01903720002155751,[0.3575],[0.17416666666666666],[1],[0],[0],[2.111394300009124],['target'],001,001,2023-09-28_11h22.42.251,tutorial3,2023.1.3,60.25453926380832,
88,0,88,0,10,209.68728429998737,209.68728429998737,0.02051569998729974,[-0.021666666666666667],[0.155],[1],[0],[0],[1.6925995000055991],['target'],001,001,2023-09-28_11h22.42.251,tutorial3,2023.1.3,60.25453926380832,
89,0,89,0,5,211.39085969998268,211.39085969998268,0.010663900000508875,[0.11916666666666667],[0.44083333333333335],[1],[0],[0],[2.1700761999818496],['target'],001,001,2023-09-28_11h22.42.251,tutorial3,2023.1.3,60.25453926380832,
90,0,90,0,10,213.5912959999987,213.5912959999987,0.020437899976968765,[0.4475],[-0.305],[1],[0],[0],[2.075087299977895],['target'],001,001,2023-09-28_11h22.42.251,tutorial3,2023.1.3,60.25453926380832,
91,0,91,0,10,215.68596520001302,215.68596520001302,0.019815700012259185,[0.42333333333333334],[-0.26916666666666667],[1],[0],[0],[1.7936983000254259],['target'],001,001,2023-09-28_11h22.42.251,tutorial3,2023.1.3,60.25453926380832,
92,0,92,0,5,217.49190090002958,217.49190090002958,0.011039200006052852,[0.011666666666666667],[0.47833333333333333],[1],[0],[0],[1.6850944999605417],['target'],001,001,2023-09-28_11h22.42.251,tutorial3,2023.1.3,60.25453926380832,
93,0,93,0,10,219.2065293000196,219.2065293000196,0.022111899976152927,[0.034166666666666665],[0.2916666666666667],[1],[0],[0],[1.389974199992139],['target'],001,001,2023-09-28_11h22.42.251,tutorial3,2023.1.3,60.25453926380832,
94,0,94,0,10,220.62203929998213,220.62203929998213,0.021898799983318895,[-0.44583333333333336],[-0.475],[1],[0],[0],[2.8405010000569746],['target'],001,001,2023-09-28_11h22.42.251,tutorial3,2023.1.3,60.25453926380832,
95,0,95,0,5,223.47545389999868,223.47545389999868,0.012446400010958314,[-0.20666666666666667],[0.4141666666666667],[1],[0],[0],[1.984200500010047],['target'],001,001,2023-09-28_11h22.42.251,tutorial3,2023.1.3,60.25453926380832,
96,0,96,0,10,225.48647360003088,225.48647360003088,0.02065800002310425,[0.010833333333333334],[0.3775],[1],[0],[0],[1.5752369000110775],['target'],001,001,2023-09-28_11h22.42.251,tutorial3,2023.1.3,60.25453926380832,
97,0,97,0,10,227.08618179999758,227.08618179999758,0.020539899996947497,[-0.25333333333333335],[0.015833333333333335],[1],[0],[0],[1.5753775000339374],['target'],001,001,2023-09-28_11h22.42.251,tutorial3,2023.1.3,60.25453926380832,
98,0,98,0,10,228.68961110000964,228.68961110000964,0.024275399977341294,[0.4683333333333333],[0.16083333333333333],[1],[0],[0],[2.322465099976398],['target'],001,001,2023-09-28_11h22.42.251,tutorial3,2023.1.3,60.25453926380832,
99,0,99,0,5,231.02589200000511,231.02589200000511,0.013171200000215322,[-0.18416666666666667],[0.32416666666666666],[1],[0],[0],[1.8178111999877729],['target'],001,001,2023-09-28_11h22.42.251,tutorial3,2023.1.3,60.25453926380832,
100,0,100,0,10,232.870974200021,232.870974200021,0.020975599996745586,[0.1525],[0.49416666666666664],[1],[0],[0],[3.17394049995346],['target'],001,001,2023-09-28_11h22.42.251,tutorial3,2023.1.3,60.25453926380832,
101,0,101,0,10,236.06862139998702,236.06862139998702,0.020048499980475754,[0.14083333333333334],[-0.365],[1],[0],[0],[2.1427897000103258],['target'],001,001,2023-09-28_11h22.42.251,tutorial3,2023.1.3,60.25453926380832,
102,0,102,0,5,238.22363030002452,238.22363030002452,0.01110020000487566,[0.3933333333333333],[0.10916666666666666],[1],[0],[0],[1.6689164999988861],['target'],001,001,2023-09-28_11h22.42.251,tutorial3,2023.1.3,60.25453926380832,
103,0,103,0,10,239.91821520001395,239.91821520001395,0.02046109997900203,"[-0.09083333333333334, -0.13833333333333334]","[-0.04416666666666667, -0.04583333333333333]","[1, 1]","[0, 0]","[0, 0]","[5.893355199950747, 7.89367029996356]",['target'],001,001,2023-09-28_11h22.42.251,tutorial3,2023.1.3,60.25453926380832,
104,0,104,0,10,247.83547170000384,247.83547170000384,0.020392099977470934,[0.36083333333333334],[0.07166666666666667],[1],[0],[0],[3.0590738999890164],['target'],001,001,2023-09-28_11h22.42.251,tutorial3,2023.1.3,60.25453926380832,
105,0,105,0,10,250.91800720000174,250.91800720000174,0.02025369997136295,[0.06333333333333334],[-0.1425],[1],[0],[0],[2.0761724999756552],['target'],001,001,2023-09-28_11h22.42.251,tutorial3,2023.1.3,60.25453926380832,
106,0,106,0,5,253.00692700000945,253.00692700000945,0.011466299998573959,[-0.1475],[0.0525],[1],[0],[0],[1.685357499984093],['target'],001,001,2023-09-28_11h22.42.251,tutorial3,2023.1.3,60.25453926380832,
107,0,107,0,5,254.708354900009,254.708354900009,0.012249699968378991,[-0.11583333333333333],[0.11],[1],[0],[0],[1.4833472999744117],['target'],001,001,2023-09-28_11h22.42.251,tutorial3,2023.1.3,60.25453926380832,
108,0,108,0,5,256.2083391000051,256.2083391000051,0.012300900008995086,[-0.225],[-0.16666666666666666],[1],[0],[0],[1.601116199977696],['target'],001,001,2023-09-28_11h22.42.251,tutorial3,2023.1.3,60.25453926380832,
109,0,109,0,10,257.8391238999902,257.8391238999902,0.023725600040052086,[-0.4166666666666667],[-0.13166666666666665],[1],[0],[0],[1.4380678000161424],['target'],001,001,2023-09-28_11h22.42.251,tutorial3,2023.1.3,60.25453926380832,
110,0,110,0,10,259.2996959000011,259.2996959000011,0.020047000027261674,[0.44083333333333335],[0.4166666666666667],[1],[0],[0],[2.1437022000318393],['target'],001,001,2023-09-28_11h22.42.251,tutorial3,2023.1.3,60.25453926380832,
111,0,111,0,5,261.45675660000416,261.45675660000416,0.01128530001733452,[0.06166666666666667],[-0.4691666666666667],[1],[0],[0],[2.1850205999799073],['target'],001,001,2023-09-28_11h22.42.251,tutorial3,2023.1.3,60.25453926380832,
112,0,112,0,5,263.6576863999944,263.6576863999944,0.012015199987217784,[-0.10166666666666667],[0.22166666666666668],[1],[0],[0],[1.5513128000311553],['target'],001,001,2023-09-28_11h22.42.251,tutorial3,2023.1.3,60.25453926380832,
113,0,113,0,5,265.2273244999815,265.2273244999815,0.014188400004059076,[-0.25583333333333336],[0.1875],[1],[0],[0],[1.348028400039766],['target'],001,001,2023-09-28_11h22.42.251,tutorial3,2023.1.3,60.25453926380832,
114,0,114,0,10,266.6036375000258,266.6036375000258,0.020836199983023107,[0.08583333333333333],[0.43666666666666665],[1],[0],[0],[1.4917779000243172],['target'],001,001,2023-09-28_11h22.42.251,tutorial3,2023.1.3,60.25453926380832,
115,0,115,0,10,268.1178486000281,268.1178486000281,0.02052020002156496,[0.20333333333333334],[0.195],[1],[0],[0],[1.7750387000269257],['target'],001,001,2023-09-28_11h22.42.251,tutorial3,2023.1.3,60.25453926380832,
116,0,116,0,5,269.90473479998764,269.90473479998764,0.010039999964646995,[0.08833333333333333],[-0.019166666666666665],[1],[0],[0],[1.3886176000232808],['target'],001,001,2023-09-28_11h22.42.251,tutorial3,2023.1.3,60.25453926380832,
117,0,117,0,5,271.3149321000092,271.3149321000092,0.013139600050635636,[-0.3925],[-0.265],[1],[0],[0],[1.5146044000284746],['target'],001,001,2023-09-28_11h22.42.251,tutorial3,2023.1.3,60.25453926380832,
118,0,118,0,10,272.859150400036,272.859150400036,0.022567200008779764,[-0.2375],[-0.12083333333333333],[1],[0],[0],[1.7081110999570228],['target'],001,001,2023-09-28_11h22.42.251,tutorial3,2023.1.3,60.25453926380832,
119,0,119,0,5,274.5791845000349,274.5791845000349,0.011794299993198365,[-0.195],[0.4533333333333333],[1],[0],[0],[1.8830972999567166],['target'],001,001,2023-09-28_11h22.42.251,tutorial3,2023.1.3,60.25453926380832,
120,0,120,0,10,276.4915792000247,276.4915792000247,0.020937699999194592,[-0.15666666666666668],[-0.009166666666666667],[1],[0],[0],[1.5760458000004292],['target'],001,001,2023-09-28_11h22.42.251,tutorial3,2023.1.3,60.25453926380832,
121,0,121,0,10,278.09413919999497,278.09413919999497,0.02085039997473359,[0.08833333333333333],[0.3333333333333333],[1],[0],[0],[2.0071652000187896],['target'],001,001,2023-09-28_11h22.42.251,tutorial3,2023.1.3,60.25453926380832,
122,0,122,0,5,280.10311319999164,280.10311319999164,0.010001600021496415,[0.4666666666666667],[-0.14166666666666666],[1],[0],[0],[1.9714141999720596],['target'],001,001,2023-09-28_11h22.42.251,tutorial3,2023.1.3,60.25453926380832,
123,0,123,0,10,282.1063147999812,282.1063147999812,0.023492700012866408,[0.3933333333333333],[0.39916666666666667],[1],[0],[0],[1.9720912000047974],['target'],001,001,2023-09-28_11h22.42.251,tutorial3,2023.1.3,60.25453926380832,
124,0,124,0,10,284.0989139000303,284.0989139000303,0.01999729999806732,[0.435],[-0.18416666666666667],[1],[0],[0],[2.0266755999764428],['target'],001,001,2023-09-28_11h22.42.251,tutorial3,2023.1.3,60.25453926380832,
125,0,125,0,5,286.1375207999954,286.1375207999954,0.011096000031102449,[-0.3675],[-0.0575],[1],[0],[0],[1.8203726999927312],['target'],001,001,2023-09-28_11h22.42.251,tutorial3,2023.1.3,60.25453926380832,
126,0,126,0,5,287.9739261000068,287.9739261000068,0.011657700000796467,[0.04833333333333333],[0.4741666666666667],[1],[0],[0],[2.867154199979268],['target'],001,001,2023-09-28_11h22.42.251,tutorial3,2023.1.3,60.25453926380832,
127,0,127,0,5,290.8565232999972,290.8565232999972,0.01143349998164922,[-0.3525],[-0.35333333333333333],[1],[0],[0],[3.116370400006417],['target'],001,001,2023-09-28_11h22.42.251,tutorial3,2023.1.3,60.25453926380832,
128,0,128,0,5,293.9884236000362,293.9884236000362,0.011564299988094717,[0.41833333333333333],[0.49333333333333335],[1],[0],[0],[2.2864417000091635],['target'],001,001,2023-09-28_11h22.42.251,tutorial3,2023.1.3,60.25453926380832,
129,0,129,0,5,296.2923343000002,296.2923343000002,0.01240700000198558,[-0.07],[0.2775],[1],[0],[0],[1.364027600036934],['target'],001,001,2023-09-28_11h22.42.251,tutorial3,2023.1.3,60.25453926380832,
130,0,130,0,5,297.6725202000234,297.6725202000234,0.011077100003603846,[-0.49333333333333335],[0.0033333333333333335],[1],[0],[0],[1.8347498999792151],['target'],001,001,2023-09-28_11h22.42.251,tutorial3,2023.1.3,60.25453926380832,
131,0,131,0,10,299.53297689999454,299.53297689999454,0.02237229997990653,[-0.31416666666666665],[0.4683333333333333],[1],[0],[0],[3.1760841000359505],['target'],001,001,2023-09-28_11h22.42.251,tutorial3,2023.1.3,60.25453926380832,
132,0,132,0,10,302.73095060000196,302.73095060000196,0.019628700043540448,[-0.405],[-0.23],[1],[0],[0],[1.9933061000192538],['target'],001,001,2023-09-28_11h22.42.251,tutorial3,2023.1.3,60.25453926380832,
133,0,133,0,10,304.75207510002656,304.75207510002656,0.024081000010482967,[0.28833333333333333],[0.1925],[1],[0],[0],[2.039953199971933],['target'],001,001,2023-09-28_11h22.42.251,tutorial3,2023.1.3,60.25453926380832,
134,0,134,0,5,306.8040022000205,306.8040022000205,0.01095060002990067,[-0.0025],[-0.1825],[1],[0],[0],[1.968966599961277],['target'],001,001,2023-09-28_11h22.42.251,tutorial3,2023.1.3,60.25453926380832,
135,0,135,0,10,308.7986137000262,308.7986137000262,0.020011700049508363,[-0.07666666666666666],[0.08416666666666667],[1],[0],[0],[1.7586223999969661],['target'],001,001,2023-09-28_11h22.42.251,tutorial3,2023.1.3,60.25453926380832,
136,0,136,0,5,310.5721513000317,310.5721513000317,0.01145280001219362,[-0.31333333333333335],[0.059166666666666666],[1],[0],[0],[1.4213434999692254],['target'],001,001,2023-09-28_11h22.42.251,tutorial3,2023.1.3,60.25453926380832,
137,0,137,0,10,312.021064999979,312.021064999979,0.020047799975145608,[-0.3325],[-0.45416666666666666],[1],[0],[0],[2.0075051999883726],['target'],001,001,2023-09-28_11h22.42.251,tutorial3,2023.1.3,60.25453926380832,
138,0,138,0,10,314.0565657999832,314.0565657999832,0.020270899985916913,[0.2633333333333333],[0.4375],[1],[0],[0],[2.42755689995829],['target'],001,001,2023-09-28_11h22.42.251,tutorial3,2023.1.3,60.25453926380832,
139,0,139,0,10,316.49671139998827,316.49671139998827,0.019387400010600686,[-0.24333333333333335],[-0.285],[1],[0],[0],[1.8775665999855846],['target'],001,001,2023-09-28_11h22.42.251,tutorial3,2023.1.3,60.25453926380832,
140,0,140,0,10,318.4031845999998,318.4031845999998,0.01960160001181066,[0.075],[0.21583333333333332],[1],[0],[0],[1.5598853999981657],['target'],001,001,2023-09-28_11h22.42.251,tutorial3,2023.1.3,60.25453926380832,
141,0,141,0,5,319.97387630003504,319.97387630003504,0.0139997000223957,[0.1725],[-0.0175],[1],[0],[0],[1.5992463000002317],['target'],001,001,2023-09-28_11h22.42.251,tutorial3,2023.1.3,60.25453926380832,
142,0,142,0,10,321.59971839998616,321.59971839998616,0.019516400003340095,[-0.3975],[-0.31583333333333335],[1],[0],[0],[2.177730099996552],['target'],001,001,2023-09-28_11h22.42.251,tutorial3,2023.1.3,60.25453926380832,
143,0,143,0,10,323.8032259999891,323.8032259999891,0.023121399979572743,[0.3925],[0.03833333333333333],[1],[0],[0],[2.256017800013069],['target'],001,001,2023-09-28_11h22.42.251,tutorial3,2023.1.3,60.25453926380832,
144,0,144,0,10,326.080461799982,326.080461799982,0.020122500020079315,[-0.2075],[0.005833333333333334],[1],[0],[0],[1.8093767000245862],['target'],001,001,2023-09-28_11h22.42.251,tutorial3,2023.1.3,60.25453926380832,
145,0,145,0,10,327.92170880001504,327.92170880001504,0.022891700034961104,[0.025833333333333333],[-0.42916666666666664],[1],[0],[0],[2.10855669999728],['target'],001,001,2023-09-28_11h22.42.251,tutorial3,2023.1.3,60.25453926380832,
146,0,146,0,5,330.0353661000263,330.0353661000263,0.010721599974203855,[0.24416666666666667],[0.2866666666666667],[1],[0],[0],[2.27053540002089],['target'],001,001,2023-09-28_11h22.42.251,tutorial3,2023.1.3,60.25453926380832,
147,0,147,0,5,332.326057200029,332.326057200029,0.01246479997644201,[0.16583333333333333],[0.2808333333333333],[1],[0],[0],[1.4832083999644965],['target'],001,001,2023-09-28_11h22.42.251,tutorial3,2023.1.3,60.25453926380832,
148,0,148,0,5,333.822113799979,333.822113799979,0.01299970003310591,[0.3983333333333333],[-0.4225],[1],[0],[0],[1.8334241000120528],['target'],001,001,2023-09-28_11h22.42.251,tutorial3,2023.1.3,60.25453926380832,
149,0,149,0,5,335.6754888999858,335.6754888999858,0.011515300022438169,[0.1025],[-0.21416666666666667],[1],[0],[0],[1.6714547000010498],['target'],001,001,2023-09-28_11h22.42.251,tutorial3,2023.1.3,60.25453926380832,
150,0,150,0,10,337.37464019999607,337.37464019999607,0.022354100015945733,[-0.1325],[0.4875],[1],[0],[0],[2.4534167000092566],['target'],001,001,2023-09-28_11h22.42.251,tutorial3,2023.1.3,60.25453926380832,
151,0,151,0,5,339.83906430000206,339.83906430000206,0.011123300006147474,[0.44416666666666665],[0.22333333333333333],[1],[0],[0],[2.420939600036945],['target'],001,001,2023-09-28_11h22.42.251,tutorial3,2023.1.3,60.25453926380832,
152,0,152,0,5,342.27049249998527,342.27049249998527,0.011355999973602593,[-0.08666666666666667],[0.2916666666666667],[1],[0],[0],[1.9166487999609672],['target'],001,001,2023-09-28_11h22.42.251,tutorial3,2023.1.3,60.25453926380832,
153,0,153,0,5,344.2061091000214,344.2061091000214,0.01181290001841262,[0.18666666666666668],[-0.06166666666666667],[1],[0],[0],[1.836217099975329],['target'],001,001,2023-09-28_11h22.42.251,tutorial3,2023.1.3,60.25453926380832,
154,0,154,0,10,346.0722974999808,346.0722974999808,0.020674599974881858,[-0.025],[0.43916666666666665],[1],[0],[0],[1.7400881999637932],['target'],001,001,2023-09-28_11h22.42.251,tutorial3,2023.1.3,60.25453926380832,
155,0,155,0,10,347.82752520003123,347.82752520003123,0.01869180001085624,[0.17666666666666667],[0.23333333333333334],[1],[0],[0],[1.5114760000142269],['target'],001,001,2023-09-28_11h22.42.251,tutorial3,2023.1.3,60.25453926380832,
156,0,156,0,10,349.36878110002726,349.36878110002726,0.021157599985599518,[0.24916666666666668],[-0.4216666666666667],[1],[0],[0],[2.127260999986902],['target'],001,001,2023-09-28_11h22.42.251,tutorial3,2023.1.3,60.25453926380832,
157,0,157,0,10,351.5134551000083,351.5134551000083,0.01933660003123805,[0.28],[0.24],[1],[0],[0],[2.0596779999905266],['target'],001,001,2023-09-28_11h22.42.251,tutorial3,2023.1.3,60.25453926380832,
158,0,158,0,10,353.6035602000193,353.6035602000193,0.02406099997460842,[-0.2075],[0.38416666666666666],[1],[0],[0],[1.8562446999712847],['target'],001,001,2023-09-28_11h22.42.251,tutorial3,2023.1.3,60.25453926380832,
159,0,159,0,10,355.48388200002955,355.48388200002955,0.019534299965016544,[-0.15916666666666668],[-0.3858333333333333],[1],[0],[0],[2.2297737000044435],['target'],001,001,2023-09-28_11h22.42.251,tutorial3,2023.1.3,60.25453926380832,
160,0,160,0,10,357.73903250001604,357.73903250001604,0.020216000033542514,[0.1975],[-0.4075],[1],[0],[0],[1.840702000015881],['target'],001,001,2023-09-28_11h22.42.251,tutorial3,2023.1.3,60.25453926380832,
161,0,161,0,10,359.59779889998026,359.59779889998026,0.020348799997009337,[0.3441666666666667],[-0.41333333333333333],[1],[0],[0],[1.5104369999608025],['target'],001,001,2023-09-28_11h22.42.251,tutorial3,2023.1.3,60.25453926380832,
162,0,162,0,10,361.1288673999952,361.1288673999952,0.020147799979895353,[-0.018333333333333333],[-0.058333333333333334],[1],[0],[0],[1.909636700002011],['target'],001,001,2023-09-28_11h22.42.251,tutorial3,2023.1.3,60.25453926380832,
163,0,163,0,10,363.0614983999985,363.0614983999985,0.019278099993243814,[-0.30416666666666664],[0.10583333333333333],[1],[0],[0],[1.7612168000196107],['target'],001,001,2023-09-28_11h22.42.251,tutorial3,2023.1.3,60.25453926380832,
164,0,164,0,5,364.83611199998995,364.83611199998995,0.010389700008090585,[-0.3358333333333333],[-0.36666666666666664],[1],[0],[0],[1.8023338000057265],['target'],001,001,2023-09-28_11h22.42.251,tutorial3,2023.1.3,60.25453926380832,
165,0,165,0,10,366.668015800009,366.668015800009,0.02017670002533123,[0.3416666666666667],[0.07083333333333333],[1],[0],[0],[1.9428131000022404],['target'],001,001,2023-09-28_11h22.42.251,tutorial3,2023.1.3,60.25453926380832,
166,0,166,0,5,368.6202268000343,368.6202268000343,0.010070700023788959,[0.2675],[-0.30333333333333334],[1],[0],[0],[1.8547341999947093],['target'],001,001,2023-09-28_11h22.42.251,tutorial3,2023.1.3,60.25453926380832,
167,0,167,0,5,370.4853106000228,370.4853106000228,0.011166599986609071,[-0.2816666666666667],[-0.2916666666666667],[1],[0],[0],[1.6355307000339963],['target'],001,001,2023-09-28_11h22.42.251,tutorial3,2023.1.3,60.25453926380832,
168,0,168,0,5,372.13906790001784,372.13906790001784,0.010748800006695092,[0.33416666666666667],[-0.17333333333333334],[1],[0],[0],[1.6010894000064582],['target'],001,001,2023-09-28_11h22.42.251,tutorial3,2023.1.3,60.25453926380832,
169,0,169,0,10,373.76901470002485,373.76901470002485,0.02197240001987666,[0.31583333333333335],[0.265],[1],[0],[0],[1.508947000023909],['target'],001,001,2023-09-28_11h22.42.251,tutorial3,2023.1.3,60.25453926380832,
170,0,170,0,5,375.28662790003,375.28662790003,0.011714500025846064,[-0.3375],[-0.09333333333333334],[1],[0],[0],[1.7688991999602877],['target'],001,001,2023-09-28_11h22.42.251,tutorial3,2023.1.3,60.25453926380832,
171,0,171,0,5,377.07539890002226,377.07539890002226,0.01188389997696504,[0.44416666666666665],[0.1725],[1],[0],[0],[1.7672586000408046],['target'],001,001,2023-09-28_11h22.42.251,tutorial3,2023.1.3,60.25453926380832,
172,0,172,0,5,378.85340269998414,378.85340269998414,0.011705700017046183,[0.43916666666666665],[-0.06666666666666667],[1],[0],[0],[1.3669743000064045],['target'],001,001,2023-09-28_11h22.42.251,tutorial3,2023.1.3,60.25453926380832,
173,0,173,0,5,380.2350030000089,380.2350030000089,0.012139099999330938,[0.31916666666666665],[0.03916666666666667],[1],[0],[0],[1.2348404000513256],['target'],001,001,2023-09-28_11h22.42.251,tutorial3,2023.1.3,60.25453926380832,
174,0,174,0,10,381.50204849999864,381.50204849999864,0.022830399975646287,[-0.3233333333333333],[-0.12416666666666666],[1],[0],[0],[1.4386226999922656],['target'],001,001,2023-09-28_11h22.42.251,tutorial3,2023.1.3,60.25453926380832,
175,0,175,0,5,382.95389100001194,382.95389100001194,0.011526599992066622,[0.0825],[0.36833333333333335],[1],[0],[0],[1.9187094999942929],['target'],001,001,2023-09-28_11h22.42.251,tutorial3,2023.1.3,60.25453926380832,
176,0,176,0,10,384.8990465999814,384.8990465999814,0.02364620001753792,[0.006666666666666667],[-0.4691666666666667],[1],[0],[0],[1.9710690000210889],['target'],001,001,2023-09-28_11h22.42.251,tutorial3,2023.1.3,60.25453926380832,
177,0,177,0,10,386.89303570002085,386.89303570002085,0.019279800006188452,[0.3333333333333333],[0.0875],[1],[0],[0],[1.578089100017678],['target'],001,001,2023-09-28_11h22.42.251,tutorial3,2023.1.3,60.25453926380832,
178,0,178,0,5,388.4836138000246,388.4836138000246,0.010633800004143268,[0.48833333333333334],[-0.16333333333333333],[1],[0],[0],[1.669591300014872],['target'],001,001,2023-09-28_11h22.42.251,tutorial3,2023.1.3,60.25453926380832,
179,0,179,0,5,390.1725601000362,390.1725601000362,0.012009199999738485,[0.30083333333333334],[-0.41],[1],[0],[0],[1.3006813999963924],['target'],001,001,2023-09-28_11h22.42.251,tutorial3,2023.1.3,60.25453926380832,
180,0,180,0,5,391.4901503000292,391.4901503000292,0.011618399992585182,[0.12166666666666667],[0.16666666666666666],[1],[0],[0],[1.552615099994],['target'],001,001,2023-09-28_11h22.42.251,tutorial3,2023.1.3,60.25453926380832,
181,0,181,0,10,393.0690263999859,393.0690263999859,0.021135499991942197,[0.20166666666666666],[0.0975],[1],[0],[0],[1.3234781000064686],['target'],001,001,2023-09-28_11h22.42.251,tutorial3,2023.1.3,60.25453926380832,
182,0,182,0,5,394.40257029997883,394.40257029997883,0.010661799984518439,[-0.0925],[0.4175],[1],[0],[0],[1.5527847000048496],['target'],001,001,2023-09-28_11h22.42.251,tutorial3,2023.1.3,60.25453926380832,
183,0,183,0,10,395.9830296,395.9830296,0.01935870002489537,[0.3016666666666667],[0.325],[1],[0],[0],[1.3116423999890685],['target'],001,001,2023-09-28_11h22.42.251,tutorial3,2023.1.3,60.25453926380832,
184,0,184,0,5,397.30668089998653,397.30668089998653,0.011239599960390478,[-0.25],[-0.17583333333333334],[1],[0],[0],[1.7672222999972291],['target'],001,001,2023-09-28_11h22.42.251,tutorial3,2023.1.3,60.25453926380832,
185,0,185,0,5,399.09628070000326,399.09628070000326,0.015528100018855184,[0.1075],[0.0075],[1],[0],[0],[1.579560600046534],['target'],001,001,2023-09-28_11h22.42.251,tutorial3,2023.1.3,60.25453926380832,
186,0,186,0,5,400.6842214000062,400.6842214000062,0.010138800018467009,[0.07916666666666666],[0.29],[1],[0],[0],[1.270386199990753],['target'],001,001,2023-09-28_11h22.42.251,tutorial3,2023.1.3,60.25453926380832,
187,0,187,0,10,401.9858740000054,401.9858740000054,0.02085639996221289,[0.025833333333333333],[-0.265],[1],[0],[0],[1.358319399994798],['target'],001,001,2023-09-28_11h22.42.251,tutorial3,2023.1.3,60.25453926380832,
188,0,188,0,5,403.3516345000244,403.3516345000244,0.011161499947775155,[0.43833333333333335],[0.26],[1],[0],[0],[1.218023199995514],['target'],001,001,2023-09-28_11h22.42.251,tutorial3,2023.1.3,60.25453926380832,
189,0,189,0,5,404.58038850000594,404.58038850000594,0.009789799980353564,[-0.415],[-0.07916666666666666],[1],[0],[0],[1.9393178999889642],['target'],001,001,2023-09-28_11h22.42.251,tutorial3,2023.1.3,60.25453926380832,
190,0,190,0,10,406.55310780002037,406.55310780002037,0.021285100025124848,[-0.2966666666666667],[-0.2816666666666667],[1],[0],[0],[1.3897401000140235],['target'],001,001,2023-09-28_11h22.42.251,tutorial3,2023.1.3,60.25453926380832,
191,0,191,0,10,407.963305399986,407.963305399986,0.018546099949162453,[0.20583333333333334],[-0.36083333333333334],[1],[0],[0],[1.82917839998845],['target'],001,001,2023-09-28_11h22.42.251,tutorial3,2023.1.3,60.25453926380832,
192,0,192,0,5,409.80268690001685,409.80268690001685,0.011143100040499121,[-0.020833333333333332],[0.03666666666666667],[1],[0],[0],[8.217935300024692],['target'],001,001,2023-09-28_11h22.42.251,tutorial3,2023.1.3,60.25453926380832,
193,0,193,0,10,418.04539829998976,418.04539829998976,0.02067120000720024,[-0.39916666666666667],[0.24666666666666667],[1],[0],[0],[2.6749289999715984],['target'],001,001,2023-09-28_11h22.42.251,tutorial3,2023.1.3,60.25453926380832,
194,0,194,0,10,420.74731280002743,420.74731280002743,0.019143200013786554,[0.09583333333333334],[-0.4216666666666667],[1],[0],[0],[3.3438174999901094],['target'],001,001,2023-09-28_11h22.42.251,tutorial3,2023.1.3,60.25453926380832,
195,0,195,0,10,424.11363009997876,424.11363009997876,0.020368599973153323,[0.3975],[0.12666666666666668],[1],[0],[0],[1.4777893000282347],['target'],001,001,2023-09-28_11h22.42.251,tutorial3,2023.1.3,60.25453926380832,
196,0,196,0,10,425.6123506000149,425.6123506000149,0.019311900017783046,[-0.18666666666666668],[-0.32],[1],[0],[0],[1.6945017999969423],['target'],001,001,2023-09-28_11h22.42.251,tutorial3,2023.1.3,60.25453926380832,
197,0,197,0,10,427.3272272000322,427.3272272000322,0.019516800006385893,[0.0225],[-0.09416666666666666],[1],[0],[0],[1.4779500999720767],['target'],001,001,2023-09-28_11h22.42.251,tutorial3,2023.1.3,60.25453926380832,
198,0,198,0,10,428.83101249998435,428.83101249998435,0.021387199987657368,[0.3925],[0.17333333333333334],[1],[0],[0],[2.259651899978053],['target'],001,001,2023-09-28_11h22.42.251,tutorial3,2023.1.3,60.25453926380832,
199,0,199,0,5,431.1041469000047,431.1041469000047,0.012003700016066432,[0.19416666666666665],[0.13416666666666666],[1],[0],[0],[2.4515070999623276],['target'],001,001,2023-09-28_11h22.42.251,tutorial3,2023.1.3,60.25453926380832,
